Folder: F-Praktikum-Photokat/uv-vis (part 2)

File: TiO2_180min.csv
nm; A
800,000000; 0,050983
797,000000; 0,051575
794,000000; 0,051963
791,000000; 0,052153
788,000000; 0,052156
785,000000; 0,052023
782,000000; 0,051985
779,000000; 0,052105
776,000000; 0,052502
773,000000; 0,053131
770,000000; 0,053766
767,000000; 0,054324
764,000000; 0,054619
761,000000; 0,054710
758,000000; 0,054693
755,000000; 0,054716
752,000000; 0,054941
749,000000; 0,055441
746,000000; 0,056151
743,000000; 0,056865
740,000000; 0,057413
737,000000; 0,057708
734,000000; 0,057829
731,000000; 0,057908
728,000000; 0,058148
725,000000; 0,058702
722,000000; 0,059470
719,000000; 0,060267
716,000000; 0,060951
713,000000; 0,061401
710,000000; 0,061675
707,000000; 0,061949
704,000000; 0,062470
701,000000; 0,063224
698,000000; 0,064176
695,000000; 0,065056
692,000000; 0,065776
689,000000; 0,066299
686,000000; 0,066768
683,000000; 0,067426
680,000000; 0,068246
677,000000; 0,069277
674,000000; 0,070299
671,000000; 0,071099
668,000000; 0,071659
665,000000; 0,072190
662,000000; 0,072868
659,000000; 0,073817
656,000000; 0,074884
653,000000; 0,075911
650,000000; 0,076686
647,000000; 0,077418
644,000000; 0,078202
641,000000; 0,079243
638,000000; 0,080498
635,000000; 0,081681
632,000000; 0,082708
629,000000; 0,083677
626,000000; 0,084748
623,000000; 0,086163
620,000000; 0,087602
617,000000; 0,088927
614,000000; 0,090094
611,000000; 0,091197
608,000000; 0,092486
605,000000; 0,093859
602,000000; 0,095238
599,000000; 0,096423
596,000000; 0,097468
593,000000; 0,098776
590,000000; 0,100265
587,000000; 0,101703
584,000000; 0,102994
581,000000; 0,104133
578,000000; 0,105580
575,000000; 0,107193
572,000000; 0,108602
569,000000; 0,109834
566,000000; 0,111136
563,000000; 0,112774
560,000000; 0,114586
557,000000; 0,115988
554,000000; 0,117222
551,000000; 0,118895
548,000000; 0,120977
545,000000; 0,122700
542,000000; 0,124044
539,000000; 0,125818
536,000000; 0,128150
533,000000; 0,130297
530,000000; 0,131925
527,000000; 0,134024
524,000000; 0,136848
521,000000; 0,139456
518,000000; 0,141469
515,000000; 0,144205
512,000000; 0,147588
509,000000; 0,150273
506,000000; 0,152736
503,000000; 0,156228
500,000000; 0,160082
497,000000; 0,162961
494,000000; 0,166384
491,000000; 0,171124
488,000000; 0,175044
485,000000; 0,178750
482,000000; 0,184209
479,000000; 0,189040
476,000000; 0,193381
473,000000; 0,199364
470,000000; 0,205049
467,000000; 0,209878
464,000000; 0,216330
461,000000; 0,222734
458,000000; 0,228480
455,000000; 0,236509
452,000000; 0,243838
449,000000; 0,251525
446,000000; 0,261024
443,000000; 0,269112
440,000000; 0,279069
437,000000; 0,289356
434,000000; 0,299346
431,000000; 0,311604
428,000000; 0,323038
425,000000; 0,337030
422,000000; 0,350696
419,000000; 0,366526
416,000000; 0,382420
413,000000; 0,399559
410,000000; 0,417092
407,000000; 0,436261
404,000000; 0,456648
401,000000; 0,479369
398,000000; 0,504849
395,000000; 0,532608
392,000000; 0,561941
389,000000; 0,595500
386,000000; 0,633298
383,000000; 0,676952
380,000000; 0,728581
377,000000; 0,791528
374,000000; 0,864995
371,000000; 0,966817
368,000000; 1,098854
365,000000; 1,273022
362,000000; 1,537728
359,000000; 1,765718
356,000000; 1,978320
353,000000; 2,225422
350,000000; 2,804598
347,000000; 4,244981
344,000000; 4,263001
341,000000; 4,312584
338,000000; 4,328636
335,000000; 4,359034
332,000000; 4,366660
329,000000; 4,374055
326,000000; 4,423211
323,000000; 4,429519
320,000000; 4,489203
317,000000; 4,505752
314,000000; 4,524740
311,000000; 4,546180
308,000000; 4,582570
305,000000; 4,600573
302,000000; 4,560911
299,000000; 4,603992
296,000000; 4,581639
293,000000; 4,642277
290,000000; 4,598084
287,000000; 4,632478
284,000000; 4,672896
281,000000; 4,640086
278,000000; 4,693406
275,000000; 4,679365
272,000000; 4,678347
269,000000; 4,747229
266,000000; 4,759535
263,000000; 4,809897
260,000000; 4,867683
257,000000; 4,897779
254,000000; 4,921497
251,000000; 4,950968
248,000000; 4,966667
245,000000; 5,005062
242,000000; 5,065339
239,000000; 5,050912
236,000000; 5,064328
233,000000; 5,064707
230,000000; 5,061749
227,000000; 5,064030
224,000000; 5,031981
221,000000; 5,017941
218,000000; 5,033333
215,000000; 4,989615
212,000000; 4,958504
209,000000; 4,893498
206,000000; 4,884668
203,000000; 4,817394
200,000000; 4,734235