Folder: F-Praktikum-Photokat/uv-vis

File: TiO2_0min.csv
nm; A
800,000000; 0,049935
797,000000; 0,050167
794,000000; 0,050409
791,000000; 0,050668
788,000000; 0,050851
785,000000; 0,051087
782,000000; 0,051398
779,000000; 0,051800
776,000000; 0,052301
773,000000; 0,052810
770,000000; 0,053267
767,000000; 0,053695
764,000000; 0,054039
761,000000; 0,054361
758,000000; 0,054804
755,000000; 0,055322
752,000000; 0,056020
749,000000; 0,056779
746,000000; 0,057567
743,000000; 0,058286
740,000000; 0,058937
737,000000; 0,059534
734,000000; 0,060269
731,000000; 0,061185
728,000000; 0,062304
725,000000; 0,063526
722,000000; 0,064784
719,000000; 0,066141
716,000000; 0,067499
713,000000; 0,069096
710,000000; 0,071056
707,000000; 0,073494
704,000000; 0,076496
701,000000; 0,080133
698,000000; 0,084506
695,000000; 0,090093
692,000000; 0,097511
689,000000; 0,107392
686,000000; 0,120759
683,000000; 0,137952
680,000000; 0,159758
677,000000; 0,185211
674,000000; 0,214132
671,000000; 0,244133
668,000000; 0,272585
665,000000; 0,297007
662,000000; 0,316550
659,000000; 0,330658
656,000000; 0,339893
653,000000; 0,344777
650,000000; 0,346114
647,000000; 0,344492
644,000000; 0,339936
641,000000; 0,332801
638,000000; 0,323646
635,000000; 0,313635
632,000000; 0,304163
629,000000; 0,295969
626,000000; 0,288918
623,000000; 0,283280
620,000000; 0,279206
617,000000; 0,276675
614,000000; 0,275695
611,000000; 0,275580
608,000000; 0,275700
605,000000; 0,275532
602,000000; 0,274789
599,000000; 0,273486
596,000000; 0,271712
593,000000; 0,269476
590,000000; 0,267000
587,000000; 0,264700
584,000000; 0,262658
581,000000; 0,261365
578,000000; 0,260796
575,000000; 0,260848
572,000000; 0,261489
569,000000; 0,262686
566,000000; 0,264365
563,000000; 0,265807
560,000000; 0,266805
557,000000; 0,266914
554,000000; 0,266096
551,000000; 0,263802
548,000000; 0,259758
545,000000; 0,254618
542,000000; 0,248792
539,000000; 0,242261
536,000000; 0,235411
533,000000; 0,228776
530,000000; 0,222458
527,000000; 0,216693
524,000000; 0,211679
521,000000; 0,207520
518,000000; 0,204102
515,000000; 0,201606
512,000000; 0,199914
509,000000; 0,198928
506,000000; 0,198718
503,000000; 0,198948
500,000000; 0,199684
497,000000; 0,200943
494,000000; 0,202593
491,000000; 0,204599
488,000000; 0,207105
485,000000; 0,209917
482,000000; 0,213128
479,000000; 0,216636
476,000000; 0,220388
473,000000; 0,224575
470,000000; 0,229027
467,000000; 0,233662
464,000000; 0,238598
461,000000; 0,243832
458,000000; 0,249729
455,000000; 0,256041
452,000000; 0,262852
449,000000; 0,270504
446,000000; 0,278602
443,000000; 0,287134
440,000000; 0,296368
437,000000; 0,306179
434,000000; 0,316920
431,000000; 0,328153
428,000000; 0,340809
425,000000; 0,354092
422,000000; 0,368754
419,000000; 0,384359
416,000000; 0,401740
413,000000; 0,419434
410,000000; 0,438851
407,000000; 0,459103
404,000000; 0,481102
401,000000; 0,505636
398,000000; 0,534189
395,000000; 0,564936
392,000000; 0,597339
389,000000; 0,634096
386,000000; 0,674746
383,000000; 0,723177
380,000000; 0,780229
377,000000; 0,847709
374,000000; 0,932938
371,000000; 1,042220
368,000000; 1,189910
365,000000; 1,405513
362,000000; 1,701416
359,000000; 1,980418
356,000000; 2,361520
353,000000; 2,642011
350,000000; 3,706910
347,000000; 4,252881
344,000000; 4,293039
341,000000; 4,283787
338,000000; 4,297228
335,000000; 4,379043
332,000000; 4,369408
329,000000; 4,417778
326,000000; 4,433021
323,000000; 4,460674
320,000000; 4,468786
317,000000; 4,479616
314,000000; 4,516489
311,000000; 4,530808
308,000000; 4,549478
305,000000; 4,562364
302,000000; 4,621019
299,000000; 4,605493
296,000000; 4,607675
293,000000; 4,587291
290,000000; 4,596656
287,000000; 4,650866
284,000000; 4,614823
281,000000; 4,653328
278,000000; 4,668164
275,000000; 4,688964
272,000000; 4,679538
269,000000; 4,738928
266,000000; 4,774072
263,000000; 4,800367
260,000000; 4,868550
257,000000; 4,901225
254,000000; 4,924313
251,000000; 4,964436
248,000000; 4,949370
245,000000; 5,009937
242,000000; 5,042729
239,000000; 5,088951
236,000000; 5,074651
233,000000; 5,087105
230,000000; 5,066735
227,000000; 5,045648
224,000000; 5,062831
221,000000; 5,038890
218,000000; 4,990029
215,000000; 4,995121
212,000000; 4,962724
209,000000; 4,923026
206,000000; 4,845136
203,000000; 4,797635
200,000000; 4,727827

File: TiO2_5min.csv
nm; A
800,000000; 0,051283
797,000000; 0,050447
794,000000; 0,050371
791,000000; 0,051525
788,000000; 0,053236
785,000000; 0,055060
782,000000; 0,056174
779,000000; 0,056106
776,000000; 0,055244
773,000000; 0,054028
770,000000; 0,053441
767,000000; 0,054037
764,000000; 0,055703
761,000000; 0,057899
758,000000; 0,059673
755,000000; 0,060309
752,000000; 0,059743
749,000000; 0,058617
746,000000; 0,058141
743,000000; 0,059020
740,000000; 0,061156
737,000000; 0,063807
734,000000; 0,065875
731,000000; 0,066555
728,000000; 0,066073
725,000000; 0,065480
722,000000; 0,065996
719,000000; 0,068235
716,000000; 0,071591
713,000000; 0,074795
710,000000; 0,076592
707,000000; 0,077136
704,000000; 0,077594
701,000000; 0,079487
698,000000; 0,083401
695,000000; 0,088966
692,000000; 0,094784
689,000000; 0,100014
686,000000; 0,105379
683,000000; 0,112787
680,000000; 0,124084
677,000000; 0,139370
674,000000; 0,157729
671,000000; 0,177145
668,000000; 0,197043
665,000000; 0,217381
662,000000; 0,238705
659,000000; 0,260826
656,000000; 0,282097
653,000000; 0,299715
650,000000; 0,312134
647,000000; 0,319782
644,000000; 0,324029
641,000000; 0,325826
638,000000; 0,325476
635,000000; 0,322161
632,000000; 0,316334
629,000000; 0,309470
626,000000; 0,303337
623,000000; 0,299152
620,000000; 0,295883
617,000000; 0,292354
614,000000; 0,289350
611,000000; 0,288904
608,000000; 0,291543
605,000000; 0,295251
602,000000; 0,297900
599,000000; 0,299725
596,000000; 0,302623
593,000000; 0,307171
590,000000; 0,311283
587,000000; 0,313344
584,000000; 0,314851
581,000000; 0,318244
578,000000; 0,323314
575,000000; 0,327735
572,000000; 0,331202
569,000000; 0,335545
566,000000; 0,341958
563,000000; 0,348254
560,000000; 0,352181
557,000000; 0,354414
554,000000; 0,356401
551,000000; 0,356310
548,000000; 0,351588
545,000000; 0,343622
542,000000; 0,335047
539,000000; 0,325586
536,000000; 0,313043
533,000000; 0,299677
530,000000; 0,288245
527,000000; 0,277722
524,000000; 0,265985
521,000000; 0,255810
518,000000; 0,249006
515,000000; 0,242009
512,000000; 0,234987
509,000000; 0,231453
506,000000; 0,229022
503,000000; 0,225205
500,000000; 0,223544
497,000000; 0,224150
494,000000; 0,222990
491,000000; 0,223003
488,000000; 0,225644
485,000000; 0,226221
482,000000; 0,228197
479,000000; 0,232304
476,000000; 0,233886
473,000000; 0,237597
470,000000; 0,242385
467,000000; 0,244890
464,000000; 0,250204
461,000000; 0,255222
458,000000; 0,259389
455,000000; 0,266900
452,000000; 0,271891
449,000000; 0,279495
446,000000; 0,287741
443,000000; 0,294841
440,000000; 0,305254
437,000000; 0,313110
434,000000; 0,324907
431,000000; 0,334822
428,000000; 0,348282
425,000000; 0,360472
422,000000; 0,375942
419,000000; 0,390330
416,000000; 0,408629
413,000000; 0,425182
410,000000; 0,445366
407,000000; 0,464713
404,000000; 0,487423
401,000000; 0,511506
398,000000; 0,540121
395,000000; 0,570989
392,000000; 0,603345
389,000000; 0,641210
386,000000; 0,683164
383,000000; 0,731678
380,000000; 0,789383
377,000000; 0,857837
374,000000; 0,943449
371,000000; 1,055052
368,000000; 1,205921
365,000000; 1,414444
362,000000; 1,723076
359,000000; 2,050690
356,000000; 2,265484
353,000000; 2,588674
350,000000; 3,523281
347,000000; 4,252868
344,000000; 4,276513
341,000000; 4,287537
338,000000; 4,291094
335,000000; 4,357398
332,000000; 4,375965
329,000000; 4,379238
326,000000; 4,426300
323,000000; 4,485311
320,000000; 4,467842
317,000000; 4,469518
314,000000; 4,519415
311,000000; 4,531307
308,000000; 4,576416
305,000000; 4,562530
302,000000; 4,600445
299,000000; 4,596342
296,000000; 4,611089
293,000000; 4,596517
290,000000; 4,616508
287,000000; 4,620649
284,000000; 4,609951
281,000000; 4,664467
278,000000; 4,682872
275,000000; 4,676037
272,000000; 4,703472
269,000000; 4,727481
266,000000; 4,758443
263,000000; 4,812777
260,000000; 4,862944
257,000000; 4,900254
254,000000; 4,916145
251,000000; 4,981486
248,000000; 4,988608
245,000000; 5,028219
242,000000; 5,028026
239,000000; 5,079418
236,000000; 5,058631
233,000000; 5,105602
230,000000; 5,073390
227,000000; 5,052164
224,000000; 5,052026
221,000000; 5,029190
218,000000; 4,992474
215,000000; 4,979747
212,000000; 4,979164
209,000000; 4,914177
206,000000; 4,852734
203,000000; 4,782776
200,000000; 4,700660

File: TiO2_15min.csv
nm; A
800,000000; 0,046803
797,000000; 0,047939
794,000000; 0,049332
791,000000; 0,050662
788,000000; 0,051274
785,000000; 0,051134
782,000000; 0,050489
779,000000; 0,049776
776,000000; 0,049601
773,000000; 0,050236
770,000000; 0,051611
767,000000; 0,053319
764,000000; 0,054728
761,000000; 0,055328
758,000000; 0,055184
755,000000; 0,054576
752,000000; 0,054284
749,000000; 0,054812
746,000000; 0,056433
743,000000; 0,058524
740,000000; 0,060411
737,000000; 0,061473
734,000000; 0,061683
731,000000; 0,061466
728,000000; 0,061665
725,000000; 0,062925
722,000000; 0,065252
719,000000; 0,068041
716,000000; 0,070307
713,000000; 0,071609
710,000000; 0,072147
707,000000; 0,072932
704,000000; 0,074751
701,000000; 0,077957
698,000000; 0,081888
695,000000; 0,085684
692,000000; 0,088782
689,000000; 0,091536
686,000000; 0,095259
683,000000; 0,101048
680,000000; 0,109300
677,000000; 0,119304
674,000000; 0,130433
671,000000; 0,142569
668,000000; 0,156601
665,000000; 0,173207
662,000000; 0,192597
659,000000; 0,213919
656,000000; 0,235137
653,000000; 0,254057
650,000000; 0,269625
647,000000; 0,282124
644,000000; 0,292150
641,000000; 0,299700
638,000000; 0,304275
635,000000; 0,305405
632,000000; 0,303879
629,000000; 0,301261
626,000000; 0,298606
623,000000; 0,296318
620,000000; 0,293688
617,000000; 0,290727
614,000000; 0,288999
611,000000; 0,289845
608,000000; 0,293314
605,000000; 0,297670
602,000000; 0,301837
599,000000; 0,306616
596,000000; 0,313233
593,000000; 0,321506
590,000000; 0,329461
587,000000; 0,336087
584,000000; 0,342726
581,000000; 0,351057
578,000000; 0,360415
575,000000; 0,369379
572,000000; 0,377698
569,000000; 0,387135
566,000000; 0,398186
563,000000; 0,409374
560,000000; 0,418942
557,000000; 0,426478
554,000000; 0,432770
551,000000; 0,436414
548,000000; 0,434959
545,000000; 0,428603
542,000000; 0,419163
539,000000; 0,407412
536,000000; 0,392123
533,000000; 0,374660
530,000000; 0,357268
527,000000; 0,341150
524,000000; 0,324596
521,000000; 0,308510
518,000000; 0,295655
515,000000; 0,284736
512,000000; 0,273719
509,000000; 0,265218
506,000000; 0,259600
503,000000; 0,253759
500,000000; 0,248381
497,000000; 0,246233
494,000000; 0,244178
491,000000; 0,241665
488,000000; 0,242017
485,000000; 0,242499
482,000000; 0,242552
479,000000; 0,245048
476,000000; 0,247021
473,000000; 0,248953
470,000000; 0,253072
467,000000; 0,256093
464,000000; 0,259536
461,000000; 0,264722
458,000000; 0,268880
455,000000; 0,274502
452,000000; 0,280662
449,000000; 0,286848
446,000000; 0,294832
443,000000; 0,302153
440,000000; 0,310880
437,000000; 0,320066
434,000000; 0,330201
431,000000; 0,341346
428,000000; 0,353298
425,000000; 0,366530
422,000000; 0,380680
419,000000; 0,396322
416,000000; 0,413267
413,000000; 0,430966
410,000000; 0,449933
407,000000; 0,470207
404,000000; 0,492261
401,000000; 0,516740
398,000000; 0,545635
395,000000; 0,576326
392,000000; 0,609898
389,000000; 0,647795
386,000000; 0,689693
383,000000; 0,739656
380,000000; 0,797906
377,000000; 0,866219
374,000000; 0,954177
371,000000; 1,062492
368,000000; 1,212541
365,000000; 1,418907
362,000000; 1,729626
359,000000; 2,025981
356,000000; 2,332719
353,000000; 2,522558
350,000000; 3,698441
347,000000; 4,239234
344,000000; 4,289375
341,000000; 4,295737
338,000000; 4,316068
335,000000; 4,369808
332,000000; 4,341975
329,000000; 4,414573
326,000000; 4,437062
323,000000; 4,472189
320,000000; 4,459456
317,000000; 4,459645
314,000000; 4,518012
311,000000; 4,512820
308,000000; 4,595758
305,000000; 4,578999
302,000000; 4,612153
299,000000; 4,606001
296,000000; 4,631120
293,000000; 4,587835
290,000000; 4,608394
287,000000; 4,632181
284,000000; 4,619536
281,000000; 4,659663
278,000000; 4,662301
275,000000; 4,659188
272,000000; 4,713792
269,000000; 4,735080
266,000000; 4,745107
263,000000; 4,790152
260,000000; 4,873129
257,000000; 4,934748
254,000000; 4,902807
251,000000; 4,970742
248,000000; 5,003682
245,000000; 5,028642
242,000000; 5,060284
239,000000; 5,059443
236,000000; 5,076108
233,000000; 5,063519
230,000000; 5,072392
227,000000; 5,066508
224,000000; 5,048287
221,000000; 5,040292
218,000000; 5,002225
215,000000; 4,986508
212,000000; 4,961969
209,000000; 4,912531
206,000000; 4,830432
203,000000; 4,806254
200,000000; 4,718951

File: TiO2_30min.csv
nm; A
800,000000; 0,045931
797,000000; 0,045744
794,000000; 0,046171
791,000000; 0,047182
788,000000; 0,048568
785,000000; 0,049822
782,000000; 0,050660
779,000000; 0,050783
776,000000; 0,050274
773,000000; 0,049546
770,000000; 0,049103
767,000000; 0,049371
764,000000; 0,050483
761,000000; 0,052178
758,000000; 0,053926
755,000000; 0,055164
752,000000; 0,055547
749,000000; 0,055134
746,000000; 0,054525
743,000000; 0,054410
740,000000; 0,055253
737,000000; 0,057027
734,000000; 0,059285
731,000000; 0,061293
728,000000; 0,062426
725,000000; 0,062589
722,000000; 0,062346
719,000000; 0,062489
716,000000; 0,063785
713,000000; 0,066161
710,000000; 0,069063
707,000000; 0,071600
704,000000; 0,073213
701,000000; 0,074012
698,000000; 0,074729
695,000000; 0,076322
692,000000; 0,079202
689,000000; 0,083238
686,000000; 0,087456
683,000000; 0,091171
680,000000; 0,094379
677,000000; 0,097828
674,000000; 0,102685
671,000000; 0,109469
668,000000; 0,118031
665,000000; 0,127611
662,000000; 0,137662
659,000000; 0,148206
656,000000; 0,159423
653,000000; 0,171276
650,000000; 0,183393
647,000000; 0,194917
644,000000; 0,205026
641,000000; 0,213218
638,000000; 0,219601
635,000000; 0,224172
632,000000; 0,227673
629,000000; 0,230485
626,000000; 0,232500
623,000000; 0,233479
620,000000; 0,233471
617,000000; 0,233314
614,000000; 0,234224
611,000000; 0,236751
608,000000; 0,240664
605,000000; 0,244907
602,000000; 0,249297
599,000000; 0,254631
596,000000; 0,261794
593,000000; 0,271135
590,000000; 0,281084
587,000000; 0,290269
584,000000; 0,299512
581,000000; 0,310119
578,000000; 0,322578
575,000000; 0,335281
572,000000; 0,347193
569,000000; 0,359395
566,000000; 0,373243
563,000000; 0,388907
560,000000; 0,404008
557,000000; 0,416679
554,000000; 0,427823
551,000000; 0,438016
548,000000; 0,444628
545,000000; 0,445546
542,000000; 0,441215
539,000000; 0,433643
536,000000; 0,422513
533,000000; 0,407597
530,000000; 0,389923
527,000000; 0,371728
524,000000; 0,354100
521,000000; 0,336427
518,000000; 0,319618
515,000000; 0,304729
512,000000; 0,292164
509,000000; 0,280966
506,000000; 0,270988
503,000000; 0,262774
500,000000; 0,256042
497,000000; 0,250464
494,000000; 0,245441
491,000000; 0,241778
488,000000; 0,239589
485,000000; 0,237730
482,000000; 0,236492
479,000000; 0,236891
476,000000; 0,237267
473,000000; 0,238084
470,000000; 0,240290
467,000000; 0,242319
464,000000; 0,244381
461,000000; 0,247747
458,000000; 0,251283
455,000000; 0,254893
452,000000; 0,259779
449,000000; 0,264802
446,000000; 0,270242
443,000000; 0,276907
440,000000; 0,283392
437,000000; 0,290807
434,000000; 0,299255
431,000000; 0,307749
428,000000; 0,318211
425,000000; 0,328541
422,000000; 0,340792
419,000000; 0,353210
416,000000; 0,367812
413,000000; 0,382122
410,000000; 0,398296
407,000000; 0,415340
404,000000; 0,434110
401,000000; 0,454022
398,000000; 0,478551
395,000000; 0,503824
392,000000; 0,532535
389,000000; 0,563964
386,000000; 0,599821
383,000000; 0,642126
380,000000; 0,691129
377,000000; 0,751740
374,000000; 0,826603
371,000000; 0,924863
368,000000; 1,055206
365,000000; 1,241461
362,000000; 1,501897
359,000000; 1,792726
356,000000; 2,148294
353,000000; 2,458841
350,000000; 3,861546
347,000000; 4,237213
344,000000; 4,283446
341,000000; 4,277810
338,000000; 4,322369
335,000000; 4,341630
332,000000; 4,344236
329,000000; 4,363351
326,000000; 4,421083
323,000000; 4,420905
320,000000; 4,482242
317,000000; 4,492974
314,000000; 4,547387
311,000000; 4,545694
308,000000; 4,570484
305,000000; 4,564559
302,000000; 4,600482
299,000000; 4,620887
296,000000; 4,596059
293,000000; 4,629664
290,000000; 4,632374
287,000000; 4,620095
284,000000; 4,637326
281,000000; 4,627553
278,000000; 4,658312
275,000000; 4,704106
272,000000; 4,720906
269,000000; 4,737371
266,000000; 4,767126
263,000000; 4,796863
260,000000; 4,840031
257,000000; 4,898114
254,000000; 4,936918
251,000000; 4,967274
248,000000; 4,966972
245,000000; 5,006917
242,000000; 5,025443
239,000000; 5,035495
236,000000; 5,083435
233,000000; 5,075855
230,000000; 5,041535
227,000000; 5,065874
224,000000; 5,076567
221,000000; 5,018460
218,000000; 5,018072
215,000000; 5,003437
212,000000; 4,969932
209,000000; 4,879189
206,000000; 4,873379
203,000000; 4,807546
200,000000; 4,716727

File: TiO2_60min.csv
nm; A
800,000000; 0,048037
797,000000; 0,048379
794,000000; 0,048157
791,000000; 0,047631
788,000000; 0,047173
785,000000; 0,047231
782,000000; 0,048073
779,000000; 0,049429
776,000000; 0,050931
773,000000; 0,052003
770,000000; 0,052421
767,000000; 0,052173
764,000000; 0,051702
761,000000; 0,051579
758,000000; 0,052148
755,000000; 0,053543
752,000000; 0,055395
749,000000; 0,057053
746,000000; 0,057880
743,000000; 0,057967
740,000000; 0,057660
737,000000; 0,057718
734,000000; 0,058619
731,000000; 0,060507
728,000000; 0,062789
725,000000; 0,064604
722,000000; 0,065593
719,000000; 0,065843
716,000000; 0,066072
713,000000; 0,067031
710,000000; 0,069145
707,000000; 0,071933
704,000000; 0,074521
701,000000; 0,076296
698,000000; 0,077242
695,000000; 0,078138
692,000000; 0,079811
689,000000; 0,082800
686,000000; 0,086374
683,000000; 0,089671
680,000000; 0,092090
677,000000; 0,093922
674,000000; 0,096206
671,000000; 0,099649
668,000000; 0,104162
665,000000; 0,108960
662,000000; 0,113314
659,000000; 0,117468
656,000000; 0,122297
653,000000; 0,128605
650,000000; 0,136395
647,000000; 0,144686
644,000000; 0,152714
641,000000; 0,160520
638,000000; 0,168762
635,000000; 0,177555
632,000000; 0,186637
629,000000; 0,195101
626,000000; 0,202319
623,000000; 0,208474
620,000000; 0,214317
617,000000; 0,220110
614,000000; 0,225392
611,000000; 0,229609
608,000000; 0,233281
605,000000; 0,237473
602,000000; 0,242693
599,000000; 0,248549
596,000000; 0,254505
593,000000; 0,261251
590,000000; 0,269685
587,000000; 0,279584
584,000000; 0,290306
581,000000; 0,301094
578,000000; 0,312768
575,000000; 0,325538
572,000000; 0,338866
569,000000; 0,352152
566,000000; 0,365501
563,000000; 0,379706
560,000000; 0,394501
557,000000; 0,408435
554,000000; 0,421227
551,000000; 0,433498
548,000000; 0,444707
545,000000; 0,453116
542,000000; 0,458103
539,000000; 0,460265
536,000000; 0,459716
533,000000; 0,455476
530,000000; 0,447620
527,000000; 0,437012
524,000000; 0,424901
521,000000; 0,411128
518,000000; 0,396362
515,000000; 0,381986
512,000000; 0,368835
509,000000; 0,356430
506,000000; 0,344986
503,000000; 0,335291
500,000000; 0,326890
497,000000; 0,319315
494,000000; 0,312794
491,000000; 0,307706
488,000000; 0,303914
485,000000; 0,300696
482,000000; 0,298811
479,000000; 0,298122
476,000000; 0,297517
473,000000; 0,298314
470,000000; 0,300032
467,000000; 0,301595
464,000000; 0,304348
461,000000; 0,307707
458,000000; 0,311125
455,000000; 0,316091
452,000000; 0,321275
449,000000; 0,327010
446,000000; 0,334004
443,000000; 0,341350
440,000000; 0,349668
437,000000; 0,358533
434,000000; 0,368260
431,000000; 0,379312
428,000000; 0,391544
425,000000; 0,404769
422,000000; 0,419340
419,000000; 0,434884
416,000000; 0,452709
413,000000; 0,470701
410,000000; 0,490635
407,000000; 0,511446
404,000000; 0,534570
401,000000; 0,559679
398,000000; 0,590099
395,000000; 0,621702
392,000000; 0,656765
389,000000; 0,696599
386,000000; 0,740566
383,000000; 0,793874
380,000000; 0,854721
377,000000; 0,928155
374,000000; 1,019861
371,000000; 1,139295
368,000000; 1,297374
365,000000; 1,511284
362,000000; 1,846959
359,000000; 2,100395
356,000000; 2,515887
353,000000; 3,211040
350,000000; 3,715596
347,000000; 4,261194
344,000000; 4,283620
341,000000; 4,283199
338,000000; 4,313085
335,000000; 4,331409
332,000000; 4,343527
329,000000; 4,394358
326,000000; 4,441414
323,000000; 4,438009
320,000000; 4,458804
317,000000; 4,509967
314,000000; 4,543200
311,000000; 4,543400
308,000000; 4,553427
305,000000; 4,571344
302,000000; 4,609946
299,000000; 4,605872
296,000000; 4,592933
293,000000; 4,624312
290,000000; 4,629589
287,000000; 4,605491
284,000000; 4,616262
281,000000; 4,618474
278,000000; 4,690395
275,000000; 4,692488
272,000000; 4,699160
269,000000; 4,738731
266,000000; 4,777924
263,000000; 4,775492
260,000000; 4,837751
257,000000; 4,860409
254,000000; 4,941653
251,000000; 4,953308
248,000000; 4,995481
245,000000; 5,023204
242,000000; 5,006476
239,000000; 5,034046
236,000000; 5,071622
233,000000; 5,092301
230,000000; 5,022569
227,000000; 5,060026
224,000000; 5,052002
221,000000; 5,033969
218,000000; 5,024417
215,000000; 5,000909
212,000000; 4,980643
209,000000; 4,911593
206,000000; 4,896650
203,000000; 4,818152
200,000000; 4,721942

File: TiO2_120min.csv
nm; A
800,000000; 0,048894
797,000000; 0,049152
794,000000; 0,049950
791,000000; 0,051155
788,000000; 0,052362
785,000000; 0,053193
782,000000; 0,053522
779,000000; 0,053317
776,000000; 0,052881
773,000000; 0,052676
770,000000; 0,052890
767,000000; 0,053752
764,000000; 0,054988
761,000000; 0,056363
758,000000; 0,057412
755,000000; 0,057939
752,000000; 0,057853
749,000000; 0,057615
746,000000; 0,057698
743,000000; 0,058368
740,000000; 0,059642
737,000000; 0,061215
734,000000; 0,062655
731,000000; 0,063537
728,000000; 0,063867
725,000000; 0,063948
722,000000; 0,064172
719,000000; 0,065125
716,000000; 0,066800
713,000000; 0,068742
710,000000; 0,070458
707,000000; 0,071553
704,000000; 0,072121
701,000000; 0,072606
698,000000; 0,073573
695,000000; 0,075310
692,000000; 0,077664
689,000000; 0,079951
686,000000; 0,081687
683,000000; 0,082827
680,000000; 0,083722
677,000000; 0,085205
674,000000; 0,087547
671,000000; 0,090417
668,000000; 0,093131
665,000000; 0,095221
662,000000; 0,096866
659,000000; 0,098738
656,000000; 0,101557
653,000000; 0,105396
650,000000; 0,109583
647,000000; 0,113469
644,000000; 0,116844
641,000000; 0,120324
638,000000; 0,124783
635,000000; 0,130300
632,000000; 0,136186
629,000000; 0,141918
626,000000; 0,147122
623,000000; 0,152262
620,000000; 0,157946
617,000000; 0,164110
614,000000; 0,169871
611,000000; 0,174324
608,000000; 0,177665
605,000000; 0,180838
602,000000; 0,184673
599,000000; 0,189019
596,000000; 0,193000
593,000000; 0,196425
590,000000; 0,200403
587,000000; 0,205870
584,000000; 0,212567
581,000000; 0,219138
578,000000; 0,225429
575,000000; 0,232307
572,000000; 0,240450
569,000000; 0,249034
566,000000; 0,257155
563,000000; 0,264656
560,000000; 0,272666
557,000000; 0,281030
554,000000; 0,288726
551,000000; 0,295271
548,000000; 0,301296
545,000000; 0,307287
542,000000; 0,312222
539,000000; 0,315462
536,000000; 0,317199
533,000000; 0,318180
530,000000; 0,318108
527,000000; 0,315694
524,000000; 0,311695
521,000000; 0,307321
518,000000; 0,302235
515,000000; 0,295968
512,000000; 0,289719
509,000000; 0,284415
506,000000; 0,279411
503,000000; 0,274162
500,000000; 0,270099
497,000000; 0,267135
494,000000; 0,264060
491,000000; 0,261813
488,000000; 0,261001
485,000000; 0,260198
482,000000; 0,260087
479,000000; 0,261300
476,000000; 0,262597
473,000000; 0,264557
470,000000; 0,267679
467,000000; 0,270522
464,000000; 0,274153
461,000000; 0,278786
458,000000; 0,283134
455,000000; 0,289058
452,000000; 0,295217
449,000000; 0,301565
446,000000; 0,309703
443,000000; 0,317273
440,000000; 0,326420
437,000000; 0,335969
434,000000; 0,345959
431,000000; 0,357614
428,000000; 0,369237
425,000000; 0,383496
422,000000; 0,397307
419,000000; 0,413719
416,000000; 0,429941
413,000000; 0,448205
410,000000; 0,466854
407,000000; 0,487368
404,000000; 0,509202
401,000000; 0,534066
398,000000; 0,562168
395,000000; 0,592791
392,000000; 0,625303
389,000000; 0,662679
386,000000; 0,704785
383,000000; 0,753186
380,000000; 0,811365
377,000000; 0,879013
374,000000; 0,963719
371,000000; 1,071219
368,000000; 1,218558
365,000000; 1,420850
362,000000; 1,699854
359,000000; 1,937378
356,000000; 2,117061
353,000000; 2,194635
350,000000; 2,804864
347,000000; 4,230018
344,000000; 4,269753
341,000000; 4,322324
338,000000; 4,306962
335,000000; 4,329294
332,000000; 4,373724
329,000000; 4,394863
326,000000; 4,411399
323,000000; 4,445828
320,000000; 4,467443
317,000000; 4,475223
314,000000; 4,529475
311,000000; 4,552798
308,000000; 4,565172
305,000000; 4,581076
302,000000; 4,560115
299,000000; 4,604649
296,000000; 4,578662
293,000000; 4,616851
290,000000; 4,612329
287,000000; 4,615291
284,000000; 4,640168
281,000000; 4,637170
278,000000; 4,639910
275,000000; 4,675046
272,000000; 4,688072
269,000000; 4,748186
266,000000; 4,773971
263,000000; 4,806136
260,000000; 4,855063
257,000000; 4,917698
254,000000; 4,912465
251,000000; 4,955833
248,000000; 5,003002
245,000000; 5,017702
242,000000; 5,048017
239,000000; 5,052735
236,000000; 5,027816
233,000000; 5,081493
230,000000; 5,043510
227,000000; 5,047400
224,000000; 5,039378
221,000000; 5,033610
218,000000; 5,025024
215,000000; 5,004244
212,000000; 4,953160
209,000000; 4,896271
206,000000; 4,872658
203,000000; 4,795418
200,000000; 4,736576